MagX, MagY, MagZ, GyroX, GyroY, GyroZ, AccelX, AccelY, AccelZ, Lum, Time
72.327850,-66.052673,-173.241226,-0.205106,-0.081396,0.072740,0.033844,-0.083374,-1.019440,0.289945,1455415914.905547
70.766815,-66.578293,-171.717117,-0.060843,-0.024034,0.016193,0.040985,-0.057434,-1.000122,0.289571,1455415914.962891
70.766815,-67.279114,-173.071884,-0.235430,0.038216,0.198664,-0.013290,-0.032074,-0.937347,0.288954,1455415915.032651
69.205780,-67.454315,-172.902542,-0.330395,-0.237038,-0.145598,0.041214,-0.070694,-0.996979,0.288117,1455415915.102756
68.511993,-65.001434,-171.547760,-0.227663,-0.146779,-0.055586,0.004013,-0.122452,-1.017334,0.287217,1455415915.162882
69.726120,-64.826233,-172.733185,-0.044645,0.074875,-0.081984,0.014862,-0.110336,-1.015793,0.286370,1455415915.232769
68.165085,-65.001434,-172.225159,-0.058302,-0.054907,-0.168035,0.003586,-0.151123,-1.000488,0.285496,1455415915.303076
69.379227,-63.074173,-171.039734,0.038480,-0.388385,-0.226391,0.044678,-0.147278,-1.064438,0.285547,1455415915.362876
69.552673,-62.898956,-171.209076,0.031900,-0.187259,-0.098647,0.020981,-0.065308,-1.138550,0.285766,1455415915.432001
68.165085,-62.898956,-173.241226,0.211851,0.222509,-0.040964,0.030411,-0.059021,-1.176437,0.285964,1455415915.502797
67.471298,-63.249374,-170.870377,-0.018179,0.423594,0.111920,0.086868,-0.150803,-0.999161,0.286175,1455415915.562769
66.777512,-61.847733,-170.870377,0.192055,0.498174,0.298812,0.076797,0.200256,-1.163025,0.286611,1455415915.632702
67.991638,-63.424576,-168.668884,0.580685,0.188378,0.306670,0.095840,-0.100937,-0.773895,0.286847,1455415915.702739
66.950958,-62.723755,-169.346268,-0.381706,0.025942,0.507625,0.050583,-0.098816,-0.733337,0.288303,1455415915.762957
67.124405,-61.497314,-169.515610,-0.156040,0.231945,0.216680,0.085098,-0.009323,-0.888565,0.288786,1455415915.832698
66.777512,-62.898956,-170.870377,-0.330064,-0.054963,0.153414,0.119736,-0.128967,-0.899887,0.288583,1455415915.902969
66.083710,-62.548553,-170.531693,-0.244692,-0.068296,0.108547,0.097214,-0.135529,-0.977997,0.288485,1455415915.962860
66.257156,-62.022934,-170.023651,0.335691,-0.062799,-0.008287,0.068253,-0.164124,-1.108322,0.287481,1455415916.032694
66.950958,-60.971695,-169.007568,0.364033,-0.220787,-0.170639,0.013794,-0.101944,-1.208206,0.286348,1455415916.102798
67.124405,-61.146896,-169.176926,-0.381116,-0.320785,-0.344575,0.022888,-0.125443,-1.128220,0.286126,1455415916.162808
65.910263,-59.570053,-169.346268,0.504166,0.514612,-0.250842,-0.145905,0.041626,-1.056931,0.285816,1455415916.232704
65.563370,-57.817993,-169.346268,-0.173340,-0.175729,-0.566928,-0.139389,-0.058868,-0.875595,0.285677,1455415916.292671
66.430603,-57.642776,-170.531693,-0.009999,-0.026176,-0.448212,0.016891,0.082535,-0.860931,0.285982,1455415916.362967
67.991638,-56.416336,-169.007568,0.213844,0.057291,-0.353680,0.020172,-0.074509,-0.737915,0.286269,1455415916.432706
67.644745,-55.014694,-169.346268,-0.163720,-0.042394,-0.261718,0.045731,-0.088379,-0.865540,0.286580,1455415916.502808
67.297852,-55.014694,-169.684952,-0.220602,-0.309200,-0.096909,0.062347,-0.101639,-0.982986,0.286473,1455415916.562834
68.511993,-52.386597,-168.160843,-0.295722,0.015900,0.153162,0.073196,-0.090591,-1.132706,0.286051,1455415916.632696
69.726120,-53.262634,-167.991501,-0.910765,-0.403648,0.127744,0.046707,0.107910,-1.334290,0.285597,1455415916.702815
67.471298,-51.335373,-170.192993,-0.384783,-0.240444,0.114446,-0.142776,0.448227,-1.308365,0.284664,1455415916.762842
69.379227,-50.108932,-168.668884,0.960767,0.592959,-0.154775,0.120880,-0.088425,-0.744751,0.283859,1455415916.832713
70.073013,-50.108932,-170.023651,-0.672644,-0.437857,0.713300,0.126740,0.013062,-0.834930,0.285973,1455415916.902893
68.685440,-49.758514,-171.039734,0.071077,0.142814,0.332560,0.028275,-0.048279,-0.818542,0.286644,1455415916.962787
69.899567,-52.036194,-170.870377,0.091269,0.278048,0.282525,0.026031,-0.164917,-0.737595,0.286687,1455415917.032705
71.634048,-50.984955,-169.515610,-0.080798,-0.012996,0.236281,-0.069931,-0.086609,-0.901825,0.287077,1455415917.102809
70.419922,-50.108932,-169.684952,-0.619374,-0.424789,-0.019114,-0.009079,0.004059,-1.177856,0.287357,1455415917.162833
71.634048,-48.532074,-171.886459,-0.250427,0.108581,-0.235195,-0.056396,-0.001160,-1.464447,0.288165,1455415917.232706
71.460602,-45.203156,-171.378418,0.901202,0.650907,-0.241285,-0.235367,0.305832,-1.357346,0.286962,1455415917.302808
71.287155,-44.327133,-172.225159,0.179068,0.248860,-0.409319,-0.124542,0.099991,-0.875580,0.287040,1455415917.362829
71.980942,-45.027954,-172.902542,0.404911,0.530728,-0.439130,0.042984,0.116318,-0.784348,0.288388,1455415917.432732
71.113708,-43.100677,-175.104034,0.197675,0.117615,-0.538638,-0.042328,-0.010452,-0.543533,0.289489,1455415917.502811
71.287155,-41.523834,-177.644226,-0.397775,-0.303967,-0.375519,0.004181,-0.128647,-0.638412,0.289657,1455415917.562837
71.287155,-39.771774,-178.660309,-0.431450,-0.263963,-0.272452,0.086746,-0.125519,-1.052200,0.289000,1455415917.632713
69.205780,-36.618057,-181.369858,-0.304435,-0.171041,0.079593,0.158722,0.109833,-1.432739,0.288164,1455415917.702808
70.073013,-38.194916,-182.893967,-0.020997,0.028039,0.226562,0.237656,0.111771,-1.445206,0.287752,1455415917.762059
67.818192,-37.669296,-185.434158,0.301946,0.019785,0.124825,-0.044159,0.416611,-1.156967,0.288152,1455415917.832693
67.644745,-40.647797,-187.296967,0.418282,0.123694,0.367224,0.319290,-0.114166,-0.702942,0.288452,1455415917.902795
65.043030,-40.823013,-189.159775,-0.412771,-0.352042,0.700789,0.047714,0.097641,-0.807098,0.291473,1455415917.962846
64.696121,-41.523834,-190.514557,-0.150526,-0.110355,0.378550,0.016708,-0.078049,-0.749252,0.291222,1455415918.032694
64.869583,-41.699036,-192.716049,-0.055679,-0.036471,0.389640,0.043457,-0.147446,-0.822617,0.290593,1455415918.102806
63.135101,-41.348618,-193.054749,0.042592,-0.128361,0.166761,-0.073975,-0.159409,-0.932388,0.291002,1455415918.162829
63.481995,-40.647797,-195.425598,-0.859678,-0.107480,-0.088027,-0.054626,0.064026,-1.356995,0.292469,1455415918.232704
60.533371,-38.019714,-196.272324,-1.016541,-0.081699,-0.126885,-0.029739,0.323318,-1.622299,0.292319,1455415918.292738
61.920959,-40.823013,-198.643173,1.405546,0.238986,-0.390202,-0.167755,0.100204,-0.997375,0.290352,1455415918.362827
61.574066,-44.327133,-201.352707,-0.011621,0.310503,-0.330241,-0.153381,0.133591,-0.822433,0.291847,1455415918.432710
60.533371,-42.925476,-202.030090,0.207656,0.234226,-0.525060,-0.066635,0.063431,-0.658295,0.293116,1455415918.502816
58.972336,-45.203156,-202.199448,0.300162,0.529430,-0.374353,-0.015884,0.005432,-0.674057,0.293236,1455415918.562834
62.267853,-47.130417,-202.030090,0.156394,0.104607,-0.444486,-0.017639,-0.130783,-0.792328,0.293483,1455415918.632703
61.574066,-46.079193,-203.384872,-0.138627,0.096318,-0.262733,0.083939,-0.139740,-1.046829,0.293645,1455415918.693034
60.533371,-45.027954,-204.400940,-0.863139,-0.458410,-0.118893,0.159790,-0.044449,-1.364578,0.293309,1455415918.762838
58.451996,-43.275894,-204.739639,-0.776872,-0.224444,0.226088,0.226593,0.402756,-1.635971,0.292750,1455415918.832695
59.666138,-46.604813,-205.247681,1.377852,0.427835,-0.043586,0.071152,0.276108,-1.002136,0.291267,1455415918.892982
61.053726,-50.809753,-204.231598,-0.524726,-0.648280,0.706264,0.098694,0.070908,-0.661621,0.293671,1455415918.962803
58.105103,-51.685776,-203.384872,-0.072117,-0.048016,0.560688,-0.052963,0.018555,-0.635193,0.297135,1455415919.032697
57.411316,-52.036194,-204.739639,-0.407440,-0.060424,0.246139,-0.014053,-0.138550,-0.668762,0.297039,1455415919.092747
58.451996,-52.386597,-204.739639,-0.287329,-0.004252,0.155264,0.017288,-0.137970,-0.951965,0.297890,1455415919.162831
56.544067,-52.211395,-203.215515,0.009206,0.139515,0.113722,-0.050049,-0.084290,-1.132797,0.297465,1455415919.232698
57.064407,-53.087433,-203.723557,-0.441992,-0.272772,-0.166224,-0.049637,0.038467,-1.376572,0.296262,1455415919.292763
56.197174,-52.912216,-201.860748,-0.433259,0.037767,-0.151501,-0.047958,0.271088,-1.445663,0.294978,1455415919.362829
57.411316,-55.189896,-200.336639,0.745755,0.265506,-0.776280,-0.137405,0.008026,-0.963211,0.293634,1455415919.432693
55.503387,-55.014694,-200.505981,-0.003312,0.399697,-0.624341,-0.110550,0.120651,-0.897705,0.295497,1455415919.492803
57.758209,-55.540314,-200.336639,0.254591,0.021278,-0.654546,-0.053787,0.042191,-0.661224,0.296750,1455415919.561826
58.972336,-57.117172,-198.135132,0.213799,-0.071835,-0.657692,0.028854,-0.101715,-0.558868,0.297837,1455415919.632708
57.931656,-55.014694,-199.489899,-0.579587,-0.382425,-0.653617,0.102478,-0.159836,-0.740341,0.298302,1455415919.692761
56.890961,-55.715515,-199.828598,-0.571693,-0.003541,0.096728,0.081528,-0.056625,-1.172562,0.296967,1455415919.762843
55.850281,-54.313873,-199.489899,-0.487085,0.017995,0.036100,0.018600,0.105087,-1.446381,0.295576,1455415919.832815
58.105103,-54.839493,-197.288406,-0.132834,-0.215125,0.246188,0.146301,0.310699,-1.411560,0.292754,1455415919.892911
59.492691,-56.941956,-196.949707,1.574098,1.084229,-0.018292,0.020554,0.090134,-0.744949,0.291484,1455415919.962801
58.105103,-57.642776,-196.611008,-1.170434,-0.842655,0.416912,0.167694,0.100677,-0.833862,0.295599,1455415920.042792
54.636139,-59.044434,-197.288406,-0.208912,0.087573,0.472706,0.011902,0.057709,-0.800400,0.299441,1455415920.092789
54.115799,-59.219635,-196.441666,-0.176222,0.106550,0.149734,0.050812,-0.153473,-0.776169,0.298305,1455415920.162809
55.329926,-57.292374,-196.949707,-0.137195,-0.194549,0.148374,0.072922,-0.133011,-0.959808,0.298107,1455415920.232772
54.115799,-59.920456,-195.764282,0.116934,0.186953,-0.024161,-0.003128,-0.131149,-1.082458,0.297500,1455415920.292804
53.942352,-57.642776,-196.611008,0.114324,-0.070489,-0.344929,-0.084518,-0.049347,-1.387512,0.297594,1455415920.362852
52.728210,-60.621292,-196.441666,-0.160401,-0.235503,-0.135156,-0.101288,0.262939,-1.422653,0.294994,1455415920.432795
54.809586,-62.022934,-196.102982,0.185908,-0.033265,-0.608833,-0.090286,0.055710,-0.990265,0.293632,1455415920.492804
54.462692,-61.322113,-196.102982,-0.016588,0.250724,-0.400879,-0.082748,0.173721,-0.886169,0.296152,1455415920.563089
53.421997,-61.672516,-195.086899,0.164767,0.185247,-0.750340,-0.066772,0.029526,-0.550079,0.297395,1455415920.632796
56.370621,-61.847733,-194.578857,-0.271476,-0.191834,-0.657508,0.034592,-0.095352,-0.606567,0.299204,1455415920.692799
55.676834,-61.146896,-195.256241,-0.396682,0.012850,-0.214012,0.028915,-0.074341,-0.964645,0.299226,1455415920.762848
56.717514,-60.446075,-193.562790,-0.513683,-0.155193,-0.051420,0.041794,0.077316,-1.291016,0.297501,1455415920.832844
55.676834,-58.343613,-192.208008,-0.265623,0.080164,-0.214257,0.096832,0.125977,-1.469284,0.295308,1455415920.892848
55.503387,-58.869232,-192.716049,0.597749,-0.023589,0.310915,0.013824,0.375107,-1.188950,0.291615,1455415920.962794
58.451996,-64.300613,-191.191940,0.812937,0.498398,0.046213,0.279617,-0.011078,-0.759033,0.291735,1455415921.032808
56.023727,-63.950195,-190.175858,-0.493612,-0.253875,0.757919,0.034378,0.167267,-0.831802,0.298023,1455415921.092793
56.717514,-63.249374,-191.530624,-0.127236,0.034227,0.464798,0.018829,-0.105957,-0.647690,0.298423,1455415921.162839
57.931656,-62.022934,-188.651733,-0.234598,0.204248,0.311386,0.018524,-0.137634,-0.801605,0.298525,1455415921.232809
54.462692,-62.373352,-190.345200,0.092839,-0.034415,0.304082,0.001099,0.044067,-1.130966,0.298176,1455415921.292793
55.156479,-63.074173,-187.974350,-0.234614,-0.294118,-0.067185,-0.015198,-0.030975,-1.164490,0.297355,1455415921.362914
54.809586,-62.373352,-189.667816,-0.033005,-0.257089,-0.611581,-0.073532,-0.099091,-1.296707,0.297860,1455415921.432804
54.636139,-60.446075,-189.159775,0.520732,0.501331,-0.328406,-0.158813,0.230087,-1.284058,0.295664,1455415921.492777
56.890961,-59.920456,-187.974350,-0.173337,-0.150999,-0.675307,-0.061630,0.093903,-0.966919,0.292548,1455415921.562891
58.105103,-61.497314,-187.466324,0.314070,0.135914,-0.589349,-0.018585,0.109116,-0.817825,0.294859,1455415921.632791
56.544067,-59.219635,-187.635666,0.469602,0.278883,-0.673985,-0.046738,0.024261,-0.574600,0.297092,1455415921.692792
61.053726,-58.518814,-186.619583,0.455168,0.859688,-0.664290,-0.074173,-0.108322,-0.564270,0.299950,1455415921.762800
60.359924,-58.518814,-186.619583,-0.730435,-0.500213,-0.604954,0.117767,-0.066010,-1.096161,0.300428,1455415921.832833
60.186478,-55.189896,-188.482391,-0.538739,-0.594549,-0.332033,0.220093,-0.005432,-1.302658,0.298634,1455415921.892741
59.319244,-55.014694,-187.296967,-0.247979,-0.108614,0.098692,0.447876,-0.028778,-1.426163,0.297241,1455415921.962776
58.278549,-52.912216,-188.313049,1.284254,0.529147,0.982719,0.178009,0.519409,-1.335541,0.296683,1455415922.032794
58.105103,-55.540314,-188.143707,0.292266,-0.382647,1.137362,0.229141,0.082550,-0.584930,0.295585,1455415922.092793
57.411316,-56.591553,-186.450241,-0.461196,0.030002,1.087694,0.025284,0.064133,-0.704178,0.301946,1455415922.162797
56.544067,-57.817993,-187.635666,-0.552241,-0.063487,0.996730,0.003189,-0.118454,-0.684448,0.300419,1455415922.232632
56.197174,-56.766754,-187.296967,-0.627546,-0.245134,0.883073,0.043289,-0.091385,-0.835175,0.297999,1455415922.292796
54.462692,-56.416336,-187.974350,0.071468,0.024735,0.589346,0.029343,-0.029053,-1.084656,0.295680,1455415922.362766
54.289246,-56.591553,-188.821091,-0.129360,-0.064647,0.413111,0.080521,-0.004196,-1.200546,0.294331,1455415922.432805
55.503387,-56.416336,-186.958282,0.407389,-0.200078,0.107678,0.022614,-0.236206,-1.378876,0.295159,1455415922.492793
53.075104,-55.365112,-186.958282,-0.461326,0.520805,1.116163,-0.121002,0.639206,-1.456512,0.295241,1455415922.562827
53.768906,-58.869232,-185.264816,0.900293,-0.434025,-0.219056,0.001526,0.021774,-0.689682,0.293873,1455415922.632809
53.075104,-57.467575,-186.280899,-0.206926,-0.099182,0.270516,-0.039474,0.172180,-0.797150,0.305817,1455415922.692799
53.075104,-57.467575,-186.619583,-0.129586,0.261702,0.245884,0.021729,-0.022095,-0.559036,0.311915,1455415922.762068
51.687515,-58.518814,-184.587433,-0.499687,-0.114236,0.554398,0.126129,-0.071396,-0.776215,0.314569,1455415922.832952
52.207870,-57.292374,-184.418091,-0.429810,-0.164825,0.801732,0.090790,0.020340,-1.087830,0.314067,1455415922.892855
52.207870,-56.941956,-184.756775,-0.156209,-0.122311,0.656118,0.069504,0.018066,-1.126724,0.309039,1455415922.962806
50.993729,-55.365112,-183.571350,-0.102035,-0.158411,1.004441,0.277405,0.194397,-1.395065,0.304241,1455415923.032793
50.473389,-55.540314,-182.047241,-0.623599,-0.154366,1.811466,0.394928,0.595917,-1.350952,0.300993,1455415923.092798
49.259247,-55.715515,-183.232666,1.460358,0.469880,2.080271,0.314407,0.411560,-0.739822,0.301895,1455415923.162793
48.912354,-57.817993,-180.184433,-0.873116,-0.053539,3.161590,0.222458,0.317078,-0.648743,0.307577,1455415923.232801
47.004425,-57.292374,-181.369858,-0.434342,-0.047050,2.950594,0.050323,0.275101,-0.706772,0.313798,1455415923.292795
44.055801,-56.766754,-178.490967,-0.652613,-0.271582,2.511611,-0.040054,0.282730,-0.910477,0.304917,1455415923.362797
42.841675,-56.591553,-178.660309,0.109613,-0.261473,1.905293,-0.026398,0.201233,-1.107544,0.297632,1455415923.432791
40.413391,-58.694016,-177.305542,0.266309,-0.283107,1.602631,-0.000259,0.039429,-1.102020,0.292385,1455415923.492789
39.372711,-58.343613,-175.950775,0.423495,-0.628884,1.317187,-0.033661,0.101471,-1.236923,0.289459,1455415923.562790
38.332016,-57.642776,-174.257309,-0.473058,-0.517439,1.305597,0.014923,0.165634,-1.222809,0.287659,1455415923.622759
36.250641,-57.642776,-173.241226,1.387995,0.446691,0.747191,-0.136688,0.299774,-1.041336,0.287289,1455415923.692567
33.648926,-58.518814,-174.426651,-0.404790,0.099909,1.116413,0.057983,0.149597,-0.791428,0.286731,1455415923.761838
32.955124,-56.766754,-173.410583,-0.247563,-0.417403,1.341727,0.186417,0.177765,-0.899353,0.289469,1455415923.832817
31.220642,-54.664276,-172.055801,-0.009691,0.135525,1.777576,0.178009,0.035492,-0.778290,0.290602,1455415923.892829
31.567551,-53.262634,-171.717117,0.015624,-0.037734,1.709794,0.048386,0.098831,-0.924805,0.291527,1455415923.962894
29.659622,-52.036194,-171.886459,0.139825,0.185470,1.724236,-0.017548,0.090500,-1.015015,0.290864,1455415924.032796
27.231339,-50.284134,-170.870377,-0.311935,-0.486938,1.856622,0.159851,0.133545,-1.241821,0.290538,1455415924.092801
26.884445,-47.480835,-170.870377,0.448931,-0.026905,2.002033,0.137756,0.244537,-1.178116,0.289263,1455415924.162800
26.190659,-45.728775,-171.209076,-0.125357,-0.502950,1.785218,-0.106308,0.341568,-0.967407,0.288194,1455415924.232761
26.190659,-42.575073,-169.854309,0.701966,0.830769,1.234367,-0.001740,0.085587,-0.732529,0.288275,1455415924.292823
27.751694,-39.596558,-169.684952,-1.170055,-0.586284,1.716525,0.029449,0.123352,-0.904831,0.288209,1455415924.362809
27.925140,-38.019714,-168.838226,-0.319959,0.000579,1.209345,-0.130142,-0.018707,-0.831863,0.285929,1455415924.432799
29.659622,-36.267654,-168.499527,-0.167742,-0.083601,0.899874,-0.019150,-0.117813,-0.954697,0.283315,1455415924.492805
29.833069,-34.690796,-170.701035,0.306560,-0.065885,0.643595,-0.080093,-0.163025,-0.990463,0.282105,1455415924.562802
30.526855,-34.340378,-169.684952,-0.093117,-0.038788,0.173211,-0.078308,0.016281,-1.194809,0.281550,1455415924.632805
30.006516,-30.661057,-169.176926,-1.025514,-0.332241,-0.204028,0.078476,0.136353,-1.436905,0.281734,1455415924.692799
31.394089,-31.011475,-168.838226,1.256434,0.252258,-0.229016,-0.098389,0.430542,-1.118042,0.281011,1455415924.762777
31.914444,-31.186676,-171.717117,0.468219,0.427375,0.165317,0.076813,-0.119247,-0.707291,0.279488,1455415924.833011
33.475479,-31.361877,-172.563843,-1.033394,-0.621688,0.415797,0.025375,0.233597,-1.021622,0.281789,1455415924.892806
31.220642,-30.135437,-171.039734,0.329480,0.377834,-0.039770,-0.064789,0.033890,-0.824371,0.281781,1455415924.963008
32.781677,-29.259415,-172.902542,0.226573,0.080882,0.024323,-0.005371,-0.079315,-0.745224,0.281320,1455415925.032799
33.475479,-28.908997,-172.563843,0.296323,0.125294,0.214768,-0.060486,-0.062469,-0.875305,0.281432,1455415925.092806
34.169266,-29.960236,-174.595993,0.042564,0.396667,0.080525,-0.021896,0.026382,-1.166885,0.281527,1455415925.163047
34.516159,-27.857758,-174.934692,-0.660607,-0.468666,0.053573,0.275391,0.277176,-1.453003,0.282841,1455415925.232800
34.342712,-30.485855,-173.749268,0.317051,-0.463749,0.573239,0.036682,0.428299,-1.191696,0.284280,1455415925.292910
37.291336,-31.712296,-176.289459,0.427792,0.452469,0.907680,0.273651,-0.141876,-0.640808,0.285063,1455415925.362796
39.025818,-31.361877,-176.966843,-1.293696,-0.423117,1.476705,0.035263,0.205032,-0.996521,0.287301,1455415925.432903
39.025818,-29.609818,-177.305542,0.186888,0.069277,0.663268,-0.094070,0.068375,-0.917999,0.286308,1455415925.493086
42.321320,-29.785034,-178.829651,0.313270,0.281799,0.665967,-0.024216,-0.147751,-0.746857,0.285241,1455415925.562931
41.800980,-32.062714,-179.337692,0.017439,-0.048278,0.409547,-0.034821,-0.104248,-0.882263,0.285988,1455415925.632887
42.321320,-31.186676,-179.845734,-0.140582,0.006840,0.154860,-0.047302,-0.074768,-1.123810,0.285979,1455415925.692812
41.454086,-31.712296,-178.999008,-0.149173,-0.286238,-0.108733,-0.122986,0.006042,-1.416840,0.286053,1455415925.762017
41.107193,-32.062714,-179.676392,0.691681,0.270325,-0.063985,-0.309540,0.321671,-1.274231,0.285805,1455415925.822804
40.066498,-35.566833,-180.692459,-0.153993,-0.093029,-0.548126,-0.098801,0.106201,-0.890823,0.286243,1455415925.892711
40.239944,-35.391617,-182.555267,0.109999,-0.092977,-0.711127,0.007874,0.094040,-0.765350,0.289039,1455415925.962800
39.199265,-37.143677,-181.539200,0.329744,0.110814,-0.692530,0.009415,-0.047958,-0.626129,0.291124,1455415926.032800
38.505463,-38.895737,-182.893967,-0.084954,-0.027333,-0.507586,0.058243,-0.055832,-0.734116,0.293148,1455415926.092801
36.250641,-40.823013,-182.047241,-0.274007,-0.499124,-0.166744,0.034576,-0.086792,-1.046738,0.293966,1455415926.162793
33.128571,-39.421356,-183.402008,-0.206804,-0.237493,0.184571,-0.097366,0.007843,-1.115723,0.293535,1455415926.232796
32.781677,-41.173416,-181.369858,-0.493941,0.178137,0.052941,0.028290,0.171524,-1.471344,0.292560,1455415926.292813
31.220642,-39.596558,-182.893967,0.724127,0.044059,0.359563,-0.035233,0.385437,-1.151611,0.291498,1455415926.362810
32.781677,-43.626297,-184.418091,0.827920,0.312430,0.300629,0.258057,-0.018326,-0.729599,0.292593,1455415926.422713
31.740997,-42.224655,-184.079391,-0.480408,-0.098009,1.271846,-0.056564,0.184860,-0.862228,0.297000,1455415926.492808
31.914444,-41.348618,-183.232666,-0.023639,0.108403,0.689851,-0.126083,-0.140778,-0.685471,0.295179,1455415926.562795
30.179962,-41.699036,-185.603500,-0.057012,0.074032,0.598829,-0.083298,-0.169098,-0.786331,0.293041,1455415926.622704
30.873749,-42.049454,-185.942200,0.076995,0.094500,0.238706,-0.194595,-0.127213,-0.827164,0.291429,1455415926.692801
28.792374,-40.647797,-185.264816,-0.925211,-0.392450,-0.278799,-0.128403,-0.048920,-1.177521,0.290161,1455415926.762799
26.884445,-40.823013,-186.450241,-0.501132,-0.173395,-0.400378,-0.180588,0.011047,-1.662659,0.289270,1455415926.822739
26.017212,-40.297394,-187.635666,1.249945,0.479666,-0.460744,-0.334106,0.292419,-1.340775,0.286725,1455415926.892769
25.496857,-43.976715,-186.111542,0.180553,0.310488,-0.546190,-0.130997,0.102188,-0.841141,0.286373,1455415926.962719
25.323410,-45.203156,-187.974350,0.304055,0.008974,-0.725349,-0.034454,0.088043,-0.636826,0.290431,1455415927.022710
25.670303,-47.656036,-190.345200,0.796837,0.255975,-0.908760,-0.048416,0.012634,-0.601913,0.293010,1455415927.092808
26.017212,-49.758514,-188.990433,-0.188894,0.141948,-0.446036,-0.009720,-0.202652,-0.637802,0.295135,1455415927.162778
24.282730,-48.707275,-192.038666,-0.586739,-0.096649,-0.054023,0.023788,-0.137375,-1.056595,0.296312,1455415927.232804
22.721695,-46.780014,-190.853241,-1.051666,-0.226962,0.165513,-0.082169,-0.033661,-1.368423,0.294256,1455415927.302752
21.334106,-45.027954,-189.498474,-1.347465,-0.006864,0.433742,0.122269,0.479218,-1.791855,0.290752,1455415927.362806
23.068588,-46.780014,-191.869324,2.267822,0.725682,-0.158366,0.190186,0.183945,-1.042526,0.286782,1455415927.432809
24.629623,-50.108932,-191.699966,0.434211,-0.150208,0.952028,0.303192,-0.059174,-0.570740,0.287945,1455415927.492817
23.588928,-47.656036,-192.377365,-0.019819,0.124656,0.747447,-0.117371,0.039749,-0.604294,0.293881,1455415927.562796
24.282730,-46.254395,-194.409515,-0.404587,0.347031,0.496519,-0.053635,-0.146149,-0.647751,0.290769,1455415927.622583
24.629623,-44.852737,-195.086899,-0.687465,-0.071260,0.534445,-0.027496,-0.082687,-0.971252,0.288894,1455415927.692812
23.588928,-45.203156,-194.748199,-0.132046,-0.257454,0.255520,-0.143295,-0.098068,-1.138565,0.286528,1455415927.762979
22.201355,-45.553574,-194.409515,0.016473,0.104021,-0.126871,-0.070328,-0.091507,-1.360199,0.284579,1455415927.822738
21.334106,-46.079193,-194.917557,-0.404851,0.216220,0.095671,-0.138153,0.293198,-1.482285,0.283489,1455415927.892843
22.201355,-50.108932,-195.086899,1.014353,0.040104,-0.734162,-0.193314,-0.024979,-0.867661,0.282041,1455415927.962809
23.242035,-49.758514,-192.716049,-0.149739,0.371864,-0.427194,-0.122452,0.103333,-0.882874,0.282692,1455415928.022709
24.976517,-51.160156,-192.716049,-0.055295,0.023943,-0.589936,-0.054398,0.024261,-0.616791,0.284052,1455415928.092798
25.496857,-54.489075,-189.837158,-0.020224,-0.005956,-0.604614,0.009125,-0.096222,-0.583847,0.285698,1455415928.162821
24.629623,-55.715515,-190.683899,-0.386893,0.076443,-0.206073,0.021133,-0.105682,-0.854523,0.286142,1455415928.222799
25.670303,-56.065933,-190.345200,-0.281766,0.008580,0.012828,-0.002396,-0.016159,-1.203445,0.285305,1455415928.292791
25.149963,-54.839493,-186.450241,-0.421492,-0.219913,-0.173125,-0.026077,0.077774,-1.399872,0.284135,1455415928.362823
25.323410,-54.664276,-185.264816,-0.584014,-0.348072,0.230719,0.216827,0.389618,-1.549728,0.282638,1455415928.422811
25.496857,-55.189896,-185.095474,1.554260,0.726239,-0.003633,0.179672,0.022507,-0.807343,0.281947,1455415928.492799
25.670303,-57.467575,-183.571350,-0.843818,-0.452893,1.071971,0.105469,0.087723,-0.701797,0.284755,1455415928.562794
26.364105,-56.766754,-182.893967,-0.257731,0.029456,0.796326,-0.074173,0.074890,-0.739624,0.286725,1455415928.622793
23.415482,-55.890717,-181.031158,-0.399957,0.129557,0.461223,-0.061691,-0.077988,-0.796707,0.285533,1455415928.692799
23.762375,-54.839493,-179.676392,-0.349990,-0.029062,0.377847,0.005188,-0.082245,-0.987015,0.284561,1455415928.752774
24.282730,-55.715515,-177.813583,0.250036,-0.103482,0.040510,-0.090195,-0.086456,-1.083588,0.283765,1455415928.822767
22.548248,-56.065933,-175.104034,0.073803,-0.265366,-0.190145,-0.031158,-0.008026,-1.357117,0.284041,1455415928.892798
22.027893,-55.540314,-172.902542,-0.365290,-0.027583,-0.057492,-0.068802,0.199753,-1.387299,0.284519,1455415928.962797
22.548248,-56.766754,-172.733185,0.454797,0.356777,-0.763062,-0.101196,0.052002,-1.000870,0.284298,1455415929.022793
23.068588,-56.241135,-171.547760,0.104841,0.226960,-0.562440,-0.062241,0.113358,-0.912613,0.285267,1455415929.092792
24.976517,-56.766754,-168.330185,0.188930,0.122079,-0.508918,-0.049362,0.014893,-0.687744,0.286529,1455415929.162802
25.323410,-55.365112,-168.330185,0.180985,0.033171,-0.497835,0.049759,-0.091187,-0.686432,0.288215,1455415929.222794
25.323410,-56.766754,-167.314117,0.004960,-0.074969,-0.119560,0.056458,-0.036438,-0.948059,0.289870,1455415929.292793
25.496857,-56.241135,-165.112610,-0.059804,0.158856,0.114122,0.220688,-0.089996,-1.039246,0.290109,1455415929.352779
23.762375,-54.138657,-163.080460,-0.319369,0.029451,0.431743,0.190002,0.045273,-1.199219,0.291277,1455415929.422792
23.242035,-51.860992,-163.927185,-1.297741,-0.777264,0.785071,0.186249,0.331345,-1.389236,0.291862,1455415929.492790
22.721695,-49.583313,-162.741760,1.088110,0.696500,0.528241,0.084213,0.000168,-0.973785,0.291190,1455415929.552760
22.721695,-48.532074,-163.080460,-0.564757,-0.241454,0.997652,-0.029251,0.099854,-0.891998,0.293176,1455415929.622792
22.721695,-46.429596,-162.741760,-0.237492,-0.244690,0.527852,-0.114243,-0.039612,-0.763779,0.293755,1455415929.692792
24.629623,-44.151917,-162.911102,-0.041840,0.063960,0.197813,-0.026489,-0.127075,-0.804779,0.293277,1455415929.752964
23.762375,-44.327133,-162.741760,-0.009331,-0.058894,0.063382,-0.020477,-0.094772,-0.892853,0.293437,1455415929.822613
21.160660,-43.801514,-161.556335,0.143859,0.069913,-0.245868,-0.044586,-0.093918,-1.076950,0.293407,1455415929.892794
23.068588,-42.575073,-161.725677,-0.402893,-0.414946,-0.334744,-0.093491,-0.060074,-1.352493,0.294281,1455415929.952980
21.681000,-41.874237,-162.064377,-0.279802,-0.054824,-0.122657,-0.180740,0.244476,-1.417236,0.294222,1455415930.022793
23.935822,-40.998215,-163.588486,0.075475,0.177085,-0.754590,-0.110245,0.049973,-0.978424,0.293476,1455415930.092804
23.935822,-42.049454,-164.265884,0.004363,0.226973,-0.619967,-0.010437,0.103287,-0.920593,0.296099,1455415930.152791
24.803070,-41.874237,-164.435226,0.333781,0.258469,-0.470290,-0.047745,0.044342,-0.705704,0.299343,1455415930.222796
22.374802,-43.275894,-165.451294,0.363635,0.372054,-0.421393,0.030487,-0.074600,-0.739441,0.303763,1455415930.292793
23.762375,-40.823013,-166.128693,0.524811,0.383932,-0.127966,0.029053,-0.098404,-0.895523,0.306076,1455415930.352796
23.588928,-42.399857,-166.975418,-0.084521,-0.151870,0.224768,0.105911,-0.080658,-1.086685,0.307086,1455415930.422797
25.496857,-41.874237,-167.483459,-0.631205,0.027510,0.111137,0.168060,-0.013168,-1.238419,0.309721,1455415930.492853
24.976517,-40.297394,-166.298035,-0.444633,-0.561628,0.225697,0.083893,0.233871,-1.322739,0.309073,1455415930.552715
24.803070,-40.122177,-168.499527,0.831452,0.256598,0.353535,0.276306,-0.090317,-0.872025,0.307009,1455415930.622792
24.976517,-40.998215,-167.652802,-0.438658,-0.052898,0.899125,0.022354,0.101013,-0.829651,0.313109,1455415930.692789
24.803070,-37.669296,-167.144760,-0.941932,-0.068128,0.703957,0.053131,-0.155548,-0.591202,0.312302,1455415930.752934
24.976517,-34.690796,-167.991501,-0.355519,0.006204,0.420555,-0.037186,-0.017792,-0.801056,0.309381,1455415930.822781
25.670303,-33.639557,-166.636719,0.069913,0.158564,0.473089,-0.114136,0.010361,-1.105606,0.304256,1455415930.892736
24.803070,-33.814774,-167.822144,-0.037545,-0.074030,0.000197,-0.056915,0.026291,-1.128983,0.302138,1455415930.952673
25.323410,-33.989975,-164.265884,0.180043,-0.079895,-0.449578,-0.049866,-0.143433,-1.236633,0.303137,1455415931.022716
23.935822,-33.989975,-165.281952,0.371938,0.223826,-0.233859,-0.225250,0.208633,-1.213013,0.303449,1455415931.092796
23.588928,-33.289154,-167.991501,-0.507760,-0.128251,-0.469342,-0.116486,0.095047,-0.971344,0.302917,1455415931.152746
23.588928,-32.588318,-167.652802,-0.056155,0.008911,-0.620891,-0.026291,0.119278,-0.906769,0.304077,1455415931.222801
22.374802,-33.814774,-167.483459,0.422217,0.209067,-0.519594,-0.007492,0.065002,-0.730484,0.305882,1455415931.292792
21.334106,-34.515594,-167.144760,0.159459,-0.029558,-0.379286,0.047867,-0.073456,-0.663849,0.308925,1455415931.352799
20.813766,-33.989975,-167.991501,-0.187716,-0.207993,-0.157644,0.014374,-0.087265,-0.906372,0.311447,1455415931.422795
21.507553,-35.391617,-166.975418,-0.448335,-0.153461,0.254696,0.029434,-0.045593,-1.114548,0.310270,1455415931.492791
20.987213,-32.413116,-166.806076,-0.702834,-0.173927,0.052731,0.032822,0.195038,-1.483917,0.308169,1455415931.552794
20.813766,-31.887497,-165.281952,0.345643,-0.184101,0.247523,0.001328,0.433151,-1.360092,0.304110,1455415931.622811
20.293411,-34.515594,-167.822144,0.879924,0.484027,0.157540,0.283493,0.042297,-0.828491,0.303651,1455415931.692670
18.905838,-33.464355,-169.515610,-0.024147,-0.149864,0.734053,0.057999,0.132019,-0.768921,0.312598,1455415931.753034
19.599625,-31.361877,-169.854309,-0.122601,0.048811,0.428761,-0.033951,-0.121597,-0.612213,0.314927,1455415931.822781
19.946518,-30.661057,-167.483459,-0.500985,-0.055302,0.490896,0.027908,-0.082779,-0.830444,0.314190,1455415931.892792
19.599625,-29.609818,-169.176926,-0.162335,-0.118452,0.266649,-0.057663,-0.043198,-1.017502,0.312483,1455415931.952805
18.558945,-29.960236,-169.176926,-0.281158,-0.014199,-0.068165,0.002747,0.034775,-1.261688,0.309835,1455415932.022794
18.038589,-28.733795,-167.991501,-0.263305,-0.021272,-0.168021,-0.090469,-0.048386,-1.406677,0.308956,1455415932.092798
16.130661,-29.609818,-167.822144,0.510228,0.300280,0.036288,-0.260895,0.246460,-1.256393,0.307228,1455415932.152798
16.651016,-29.434616,-171.039734,0.235864,0.012266,-0.584588,-0.136017,0.011749,-0.834702,0.305881,1455415932.222794
17.344803,-31.537094,-170.701035,0.126397,0.152232,-0.634996,-0.078552,0.120743,-0.798965,0.308003,1455415932.292792
16.997910,-32.588318,-173.410583,0.471324,0.364511,-0.704309,-0.073730,0.098236,-0.716934,0.308465,1455415932.352887
16.997910,-35.041214,-173.410583,-0.269365,-0.056015,-0.464089,0.019379,-0.157150,-0.593918,0.310700,1455415932.422810
14.743073,-34.865997,-174.595993,-0.392348,-0.109499,-0.287047,0.011337,-0.156815,-0.865997,0.314088,1455415932.492792
16.304108,-34.690796,-172.055801,-0.627725,0.119275,-0.115970,0.018631,-0.100189,-1.101822,0.312592,1455415932.552797
14.743073,-32.062714,-170.192993,-1.171288,0.130147,-0.067783,0.027115,0.241928,-1.592712,0.310180,1455415932.622793
14.916534,-31.186676,-169.684952,1.148382,0.038132,-0.141077,0.018814,0.528900,-1.483932,0.304007,1455415932.692793
17.518250,-33.113937,-173.241226,1.902261,0.688454,-0.069087,0.215302,-0.003525,-0.723907,0.299295,1455415932.752972
14.222733,-32.588318,-175.442734,-0.212037,-0.191306,0.441211,0.072342,0.002701,-0.586670,0.309635,1455415932.822993
16.651016,-32.938736,-174.765350,-0.524456,-0.155879,0.327238,0.057129,-0.015442,-0.785965,0.312968,1455415932.892799
14.743073,-29.259415,-175.612076,-0.234851,-0.181009,0.381431,0.050568,-0.080063,-0.842560,0.311174,1455415932.952833
14.743073,-27.507355,-175.612076,-0.033638,0.082227,0.241639,-0.027298,-0.035309,-0.929855,0.310039,1455415933.022803
15.957214,-26.280914,-176.458801,-0.148583,-0.081472,-0.069198,0.048935,-0.007294,-1.223236,0.308245,1455415933.092797
14.916534,-26.631317,-175.781418,-0.033370,-0.008855,-0.078102,-0.014999,0.006348,-1.358871,0.307014,1455415933.152804
13.875839,-24.528854,-178.152267,0.152818,0.094227,0.077834,-0.114502,0.257538,-1.255096,0.305633,1455415933.222797
13.528946,-26.981735,-180.523117,0.025915,-0.171531,-0.618915,-0.206894,-0.202667,-0.698242,0.304029,1455415933.292798
12.314804,-26.105698,-180.692459,-0.781808,-0.094110,-0.595658,-0.185791,0.093307,-0.900391,0.304159,1455415933.352794
10.927216,-25.755295,-181.369858,-0.050271,0.050720,-0.542903,-0.084457,0.137115,-0.899445,0.303661,1455415933.422798
9.019287,-28.383377,-181.877884,0.012698,-0.148533,-0.675319,-0.041840,-0.023041,-0.743530,0.304426,1455415933.492792
6.937912,-27.332138,-182.893967,-0.037735,0.087770,-0.377620,0.016510,-0.135635,-0.841995,0.305769,1455415933.552810
4.509644,-28.733795,-181.877884,-0.030408,0.117318,-0.228401,-0.052109,0.000412,-1.094482,0.305404,1455415933.622793
4.336197,-28.558594,-181.708542,-0.606179,-0.031998,-0.227287,-0.025986,0.080795,-1.273209,0.305568,1455415933.692805
2.775162,-25.930496,-183.571350,-0.439087,0.175048,0.099294,0.177307,0.175125,-1.331345,0.304947,1455415933.752877
2.428268,-26.981735,-183.910049,1.437268,0.488015,0.121300,0.086609,0.074722,-0.947678,0.304014,1455415933.822770
2.948608,-27.857758,-186.450241,-0.514990,-0.103512,0.728784,0.132187,0.095993,-0.850067,0.304944,1455415933.892882
0.346893,-25.930496,-187.296967,-0.102145,-0.063654,0.582600,0.052017,0.108765,-0.901474,0.307573,1455415933.952794
1.561020,-23.302414,-189.498474,0.009614,-0.105101,0.302719,-0.045273,-0.079895,-0.796875,0.305428,1455415934.022795
-0.520355,-21.199936,-188.482391,-0.166583,0.059399,0.237872,-0.042786,-0.078445,-0.838745,0.303888,1455415934.092802
-2.254837,-20.849518,-189.837158,0.089521,0.240055,-0.022025,-0.033157,-0.079697,-0.997406,0.302296,1455415934.162853
MagX, MagY, MagZ, GyroX, GyroY, GyroZ, AccelX, AccelY, AccelZ, Lum, Time
14.569626,-30.836258,-173.410583,-0.033751,-0.000066,-0.030174,0.054855,0.001984,-1.042358,0.377133,1455415951.497739
14.569626,-30.836258,-174.087967,-0.391708,0.493664,0.075135,0.059280,0.011307,-0.945557,0.378859,1455415951.547744
15.783768,-29.960236,-172.563843,-0.072369,0.067047,0.165567,0.037292,0.014542,-0.965012,0.380078,1455415951.607856
16.997910,-30.485855,-171.717117,0.182397,-0.238820,0.046384,0.046753,0.023071,-0.955780,0.381029,1455415951.677854
15.263428,-28.733795,-172.394501,-0.077955,0.057192,-0.050547,0.083572,-0.093369,-0.911636,0.382663,1455415951.747745
15.610321,-28.733795,-172.733185,-0.255375,0.175311,-0.242300,0.072983,-0.058319,-0.920242,0.384297,1455415951.807852
15.436874,-28.908997,-171.886459,0.141632,-0.366485,-0.219775,0.094025,-0.097015,-0.888901,0.384493,1455415951.877876
15.436874,-27.857758,-172.563843,0.389097,-0.121165,0.173911,0.059540,-0.153839,-1.010468,0.386374,1455415951.947735
13.702393,-28.558594,-170.870377,0.416243,-0.118501,0.110394,-0.072754,-0.091583,-1.274231,0.387045,1455415952.007911
13.008606,-27.507355,-173.579926,0.153671,-0.805949,-0.004148,-0.101562,-0.035889,-1.220245,0.387048,1455415952.078051
11.100677,-26.631317,-173.749268,-0.340714,-0.553564,-0.103984,-0.128754,0.236389,-1.241379,0.388695,1455415952.147799
11.100677,-24.879257,-170.701035,-0.169908,-0.588273,0.037122,-0.075439,0.162262,-0.900848,0.388238,1455415952.207883
9.539642,-24.704056,-169.854309,-0.944815,0.187991,-0.164894,-0.115677,0.101151,-0.685654,0.387557,1455415952.277885
7.978607,-22.426376,-170.023651,-0.555577,-0.186835,-0.380857,0.052078,-0.085602,-0.528885,0.382505,1455415952.347791
6.417572,-22.251175,-170.531693,-0.237932,-0.287075,-0.290620,-0.019073,-0.273666,-0.610092,0.376665,1455415952.407888
3.295502,-21.550339,-169.515610,-0.294934,0.431316,0.158847,-0.043320,-0.442917,-1.257309,0.368064,1455415952.477882
2.775162,-18.571838,-169.684952,-0.916417,0.172340,0.707811,-0.271683,-0.322296,-1.330978,0.358336,1455415952.547785
2.601715,-15.593338,-172.225159,-0.231304,0.704941,0.560201,-0.261169,-0.172867,-1.139313,0.356494,1455415952.607884
2.775162,-13.666077,-176.797501,1.055124,0.702245,0.414055,0.095291,-0.028442,-1.380341,0.364037,1455415952.677887
-0.173462,-19.097458,-183.740692,0.664851,0.359603,0.616140,0.081421,-0.090042,-1.260254,0.369409,1455415952.747922
-3.989319,-19.097458,-184.756775,0.020219,-0.636558,0.875283,0.161758,0.299240,-1.364639,0.374864,1455415952.807719
-7.631729,-17.871017,-183.910049,-1.023005,-0.711139,0.522572,0.057419,0.170853,-0.722733,0.380024,1455415952.887789
-11.447586,-20.674316,-181.200500,0.206112,-1.204387,0.352629,-0.260239,0.384995,-0.682861,0.385722,1455415952.937829
-11.794479,-26.631317,-184.587433,0.877964,-0.466895,-0.235464,-0.114304,0.116455,-0.329529,0.390258,1455415953.007890
-14.049301,-34.165176,-183.402008,1.378393,-0.313918,-0.370407,-0.255020,0.552277,-1.396317,0.393477,1455415953.077907
-13.875854,-41.348618,-183.571350,-1.669220,-0.324192,-0.978395,-0.175919,-0.125534,-1.550751,0.398350,1455415953.147794
-15.089996,-42.224655,-180.353775,-1.964194,-0.250925,-0.638682,-0.229141,0.000336,-1.257828,0.403015,1455415953.207892
-11.100677,-43.100677,-177.136200,-1.712771,0.038792,-0.913940,-0.116440,-0.347214,-0.584869,0.400050,1455415953.277875
-8.845856,-42.925476,-176.966843,0.211925,-0.260762,-0.542868,0.072205,-0.397171,-0.559708,0.398140,1455415953.347815
-6.591034,-47.305634,-178.490967,1.521107,-0.057413,0.215809,0.214813,-0.393982,-0.717560,0.394002,1455415953.407883
-2.775177,-50.809753,-180.523117,3.258105,1.036303,0.777165,0.007721,-0.256409,-1.452408,0.393166,1455415953.477873
1.907928,-52.036194,-182.385925,-0.282449,0.510148,0.230747,-0.125046,0.017273,-1.568222,0.396242,1455415953.547833
5.550339,-49.408096,-185.264816,-1.516139,1.274037,-0.026534,-0.057129,0.173019,-1.027710,0.392104,1455415953.607902
12.488251,-44.502335,-186.280899,-0.042617,0.264981,0.148999,-0.146500,0.414597,-0.726212,0.382163,1455415953.677887
13.355499,-46.780014,-186.450241,0.480127,0.295329,0.072094,0.051743,0.205688,-0.482452,0.374670,1455415953.747817
15.957214,-46.955215,-187.296967,0.234185,0.035286,-0.139719,-0.345047,0.376663,-0.639313,0.368115,1455415953.807899
17.865143,-49.583313,-187.805008,-1.539390,1.039147,-1.131566,-0.272919,0.328247,-1.317215,0.365669,1455415953.877912
18.385483,-45.203156,-185.942200,-2.259894,-0.720892,-1.224712,-0.054825,0.491455,-1.776230,0.363339,1455415953.937832
17.865143,-42.925476,-185.772858,-1.992872,-1.019224,-1.645886,-0.164841,-0.265488,-0.611160,0.361425,1455415954.006944
19.946518,-43.976715,-184.418091,0.378412,-0.078966,-1.006994,0.245865,-0.356750,-0.739700,0.365200,1455415954.078030
20.466873,-46.604813,-183.910049,1.092600,0.372298,0.211410,0.396317,-0.291763,-0.472626,0.368209,1455415954.147766
22.374802,-47.831253,-183.402008,2.069577,0.515157,0.759556,0.291245,-0.175461,-1.353180,0.368927,1455415954.207849
26.884445,-52.036194,-183.402008,-0.589508,0.032901,1.295869,-0.029236,0.237320,-2.121552,0.364567,1455415954.277834
26.537552,-49.933716,-182.047241,-0.145759,0.905650,1.332701,-0.012253,0.383957,-1.488892,0.362082,1455415954.347795
28.618927,-48.532074,-180.015076,-0.041571,-0.853626,0.536000,-0.175323,0.461288,-0.689468,0.364532,1455415954.407852
31.567551,-49.057693,-179.507034,1.527642,0.273896,0.491312,-0.060913,0.427216,-0.201492,0.365340,1455415954.477845
30.526855,-51.510574,-178.829651,0.878524,0.287584,0.093573,-0.223251,0.517227,-0.292664,0.366881,1455415954.537789
31.047195,-51.335373,-178.999008,0.692138,-0.131314,-1.050578,-0.702988,0.242401,-1.147278,0.373361,1455415954.607848
33.302032,-45.203156,-178.490967,-2.311116,-0.648247,-1.164208,-0.071716,0.310577,-1.899261,0.380384,1455415954.677739
32.261337,-42.399857,-178.829651,-1.662651,-0.391342,-1.035114,-0.066528,-0.188370,-0.921921,0.376461,1455415954.737828
30.353409,-39.771774,-176.628159,-1.233894,0.558098,-0.945856,0.375427,-0.274597,-0.777893,0.381356,1455415954.807853
30.179962,-37.143677,-178.152267,1.297236,-0.635587,0.471565,0.299347,-0.340958,-0.374207,0.385138,1455415954.877847
30.873749,-36.793274,-177.136200,1.553125,0.167909,1.648594,0.248566,0.062469,-0.998886,0.396660,1455415954.937748
35.730301,-35.742035,-179.168350,-0.603199,1.567382,1.959249,0.007126,-0.450363,-1.655579,0.408091,1455415955.007850
38.852371,-34.690796,-182.893967,0.293382,-0.517721,1.061023,-0.322342,0.326355,-1.699875,0.417554,1455415955.077976
40.066498,-32.763535,-184.418091,-0.337075,-0.990716,0.463745,-0.100494,0.308258,-0.713760,0.426367,1455415955.147747
39.025818,-32.413116,-188.482391,0.771810,0.559980,0.040797,-0.143890,0.536545,-0.442810,0.433017,1455415955.207800
40.066498,-36.968475,-194.578857,1.537059,-0.763189,-0.273414,-0.066162,0.316711,-0.172562,0.436762,1455415955.277839
37.985123,-42.925476,-197.288406,1.015356,-0.630295,-0.350865,-0.251312,0.298172,-1.071320,0.441069,1455415955.337968
34.169266,-43.275894,-197.288406,-3.240690,1.066364,-2.026293,-0.152786,0.252991,-1.805206,0.443008,1455415955.407833
28.272034,-33.814774,-198.643173,-1.226780,-1.115494,-1.659086,-0.023361,0.020676,-1.188507,0.431882,1455415955.477835
23.762375,-35.566833,-196.272324,-2.800095,0.718967,-1.903161,0.325043,-0.161926,-0.715759,0.408482,1455415955.547754
18.558945,-32.413116,-193.562790,-0.803138,0.037356,-0.761096,0.470535,-0.275726,-0.866684,0.391578,1455415955.607847
18.732391,-35.391617,-194.409515,0.803291,-0.042786,0.740849,0.384674,-0.312393,-0.945480,0.390461,1455415955.677850
17.171356,-41.173416,-194.917557,2.530247,0.477126,1.541251,0.232910,0.049774,-1.470032,0.385028,1455415955.737839
17.344803,-45.553574,-195.764282,-0.316493,1.364258,1.525035,0.068192,-0.128677,-1.682281,0.375153,1455415955.807837
14.049286,-44.677536,-193.224091,-0.227617,0.998519,0.898221,-0.431076,0.061752,-1.055359,0.374499,1455415955.877829
11.447571,-41.699036,-191.022583,-1.426783,-0.450553,0.761095,0.055954,0.551620,-1.403900,0.386549,1455415955.937791
8.672394,-44.151917,-189.329132,1.822433,0.606135,0.262550,-0.166580,0.339462,-0.353943,0.388819,1455415956.007870
7.111359,-50.984955,-186.111542,1.602943,-0.494937,-0.373209,-0.082260,0.312790,-0.162155,0.392022,1455415956.077896
4.856537,-55.014694,-182.555267,0.651323,-1.226301,-0.968212,-0.603485,-0.238998,-0.780365,0.395273,1455415956.147743
6.070679,-55.189896,-183.402008,-2.671414,-0.077472,-1.598976,-0.167023,0.585297,-2.161606,0.399909,1455415956.208087
4.509644,-53.613052,-178.829651,-1.024927,-0.973806,-0.604730,-0.120575,-0.357941,-0.474213,0.394331,1455415956.277842
6.244125,-52.561813,-176.458801,-1.021945,-0.568247,-0.974669,0.073837,-0.076965,-0.791443,0.396063,1455415956.347845
5.550339,-50.108932,-175.442734,0.566857,0.593069,-0.207104,0.227661,-0.311325,-0.542969,0.395770,1455415956.407847
6.070679,-46.429596,-176.628159,1.075568,-0.106120,0.448820,0.170105,0.033127,-1.235596,0.395993,1455415956.477840
8.325500,-45.203156,-177.813583,2.288430,0.815531,1.292632,0.224731,-0.480255,-1.450989,0.397569,1455415956.537786
8.152054,-42.224655,-182.385925,0.126803,-0.190851,0.712105,-0.146881,0.092697,-1.738571,0.404442,1455415956.607859
11.794464,-36.793274,-186.958282,-1.888086,0.790741,0.556892,0.116531,0.238144,-0.943924,0.409625,1455415956.677857
13.528946,-33.289154,-186.619583,-0.024925,-0.145540,0.582982,-0.241882,0.312775,-0.570175,0.405462,1455415956.737829
13.182053,-34.340378,-188.990433,1.266924,-0.536415,0.222841,0.001770,0.166763,-0.331314,0.399330,1455415956.807870
11.274124,-36.968475,-191.191940,0.887822,-0.182250,0.363251,-0.233566,0.096680,-0.946747,0.395351,1455415956.877831
10.406876,-37.844498,-192.038666,-3.729495,2.017583,-1.550520,-0.261093,0.646484,-2.043900,0.394636,1455415956.937837
8.845840,-36.618057,-190.514557,0.406670,-0.953328,-0.686321,-0.125336,0.268509,-1.415405,0.383609,1455415957.007848
4.336197,-36.968475,-186.788925,-2.257123,-0.634979,-1.374190,-0.112656,-0.173203,-0.488037,0.375298,1455415957.077976
5.029984,-37.669296,-186.111542,-0.850689,0.279469,-0.546322,0.303268,-0.221054,-0.759476,0.380172,1455415957.137952
3.815857,-38.895737,-185.603500,1.563443,0.449444,0.621510,0.197662,-0.301392,-0.649582,0.383910,1455415957.207836
5.376877,-42.925476,-187.127625,2.654190,-0.278946,0.712468,0.175949,0.139297,-1.666260,0.384362,1455415957.277801
6.070679,-48.181656,-185.434158,1.056043,-0.235518,0.909600,-0.115509,-0.473816,-1.604248,0.379316,1455415957.337851
4.683090,-45.378357,-185.434158,1.590106,-0.342047,0.320222,-0.199387,0.080978,-1.128723,0.376728,1455415957.407847
7.978607,-46.254395,-187.296967,-1.166017,-0.299156,0.076541,0.089081,0.182999,-1.016586,0.379682,1455415957.477831
7.805161,-45.378357,-186.450241,0.951298,-0.876560,0.036361,-0.122803,0.417099,-0.482956,0.378410,1455415957.537795
6.244125,-48.707275,-185.264816,1.798701,-0.280532,-0.038812,-0.051346,0.241684,-0.159866,0.377327,1455415957.607844
6.591019,-52.912216,-185.942200,1.430091,-0.431063,-0.266252,-0.009018,0.067078,-0.757950,0.378920,1455415957.677844
5.550339,-53.262634,-182.555267,-2.351661,1.426157,-0.429806,-0.765594,-0.499390,-0.722153,0.382932,1455415957.737843
11.967911,-47.480835,-190.175858,-1.694516,-1.909121,-0.618952,0.286072,0.422775,-2.079803,0.382604,1455415957.807804
10.406876,-42.750275,-187.974350,-2.548060,0.589127,-0.531727,-0.098907,-0.011887,-1.015488,0.365434,1455415957.877348
8.845840,-41.523834,-186.450241,-0.290940,0.017941,-0.510706,0.003326,-0.208008,-0.765274,0.368767,1455415957.937834
6.764465,-42.224655,-186.788925,0.255089,-0.630671,-0.204113,0.256195,-0.257126,-0.865051,0.370085,1455415958.007873
6.417572,-44.327133,-187.466324,1.703851,-0.207504,0.873462,0.277527,0.034836,-1.188461,0.369507,1455415958.077978
6.244125,-48.707275,-188.990433,0.864221,-0.154220,1.732516,0.341782,-0.281113,-1.414413,0.373308,1455415958.137912
6.937912,-47.656036,-187.974350,0.665271,0.465797,1.470105,0.037567,0.236282,-1.478577,0.377492,1455415958.207835
7.805161,-45.378357,-190.514557,-0.410558,0.236638,1.118229,0.069855,0.136581,-0.719009,0.378265,1455415958.277843
9.019287,-44.502335,-191.361282,0.966462,-0.366848,1.357873,-0.175415,0.221741,-0.657516,0.381988,1455415958.337901
8.672394,-45.203156,-189.329132,0.920582,-0.023581,0.830601,-0.160721,0.199081,-0.675766,0.385189,1455415958.407844
8.672394,-46.254395,-188.990433,0.760504,-0.615507,0.473070,-0.052139,-0.104782,-0.406265,0.386973,1455415958.478029
7.111359,-47.831253,-187.805008,-0.536804,0.407381,0.574122,-0.097504,-0.043854,-1.184845,0.390048,1455415958.537836
7.805161,-46.429596,-186.111542,-0.618058,-0.189729,-0.046421,-0.092285,0.350891,-1.630798,0.390644,1455415958.607919
7.631714,-45.553574,-185.942200,-0.471647,0.373430,0.278864,-0.210495,-0.206345,-0.924545,0.390635,1455415958.677875
8.845840,-44.327133,-186.111542,-0.993481,0.240335,0.198757,-0.211670,-0.068893,-1.042709,0.391204,1455415958.737838
8.845840,-43.275894,-185.772858,-0.506983,-0.072802,0.075765,-0.078705,-0.125473,-0.844406,0.385904,1455415958.807932
10.753769,-43.451096,-185.264816,0.108065,0.090455,0.450769,-0.049103,-0.121750,-0.764236,0.385501,1455415958.877871
10.059982,-44.151917,-183.571350,0.369318,-0.200909,0.447722,-0.095474,-0.086258,-0.821136,0.387879,1455415958.937952
9.713089,-43.801514,-184.248734,0.400487,0.140801,0.707605,-0.106964,-0.054062,-1.101349,0.388598,1455415959.007777
11.794464,-42.399857,-184.926117,-0.506709,0.363428,0.513551,-0.203232,0.076462,-1.441483,0.388638,1455415959.077871
12.488251,-41.699036,-185.264816,0.239025,-0.108521,0.564906,0.121597,0.081543,-1.172470,0.386137,1455415959.137790
14.396179,-40.472595,-185.772858,-0.625409,0.559256,0.575093,0.081528,0.003876,-0.840897,0.384721,1455415959.207846
16.477554,-39.070953,-183.740692,0.099968,0.690127,0.595775,0.044571,0.015350,-0.835312,0.381228,1455415959.277840
18.038589,-39.596558,-185.942200,-0.195149,0.440047,0.420706,-0.082809,-0.096268,-0.808273,0.377765,1455415959.337832
19.079285,-37.494095,-185.264816,-0.292833,0.192885,0.158509,0.021286,-0.037918,-0.994629,0.375530,1455415959.407823
19.079285,-37.844498,-186.619583,-0.311417,0.396691,0.202077,0.032822,-0.074158,-0.905701,0.373575,1455415959.477828
MagX, MagY, MagZ, GyroX, GyroY, GyroZ, AccelX, AccelY, AccelZ, Lum, Time
41.800980,-35.566833,-170.870377,0.133859,-0.202471,-0.096522,-0.045731,-0.080246,-0.986588,0.327093,1455415993.788768
43.015121,-34.690796,-171.378418,-0.300661,0.487486,-0.006865,-0.133575,-0.104462,-0.937286,0.327210,1455415993.858750
44.229248,-35.566833,-170.870377,-0.229014,0.313311,-0.025186,-0.115143,-0.110565,-1.022583,0.326679,1455415993.918735
45.096497,-35.041214,-171.039734,0.040490,-0.276945,-0.034183,-0.075668,-0.148773,-0.943573,0.324160,1455415993.988830
45.443390,-32.237915,-170.701035,-0.161602,-0.108871,-0.053549,-0.016647,-0.185165,-0.955536,0.324970,1455415994.058950
45.269943,-35.216415,-170.531693,0.189836,-0.210139,0.061536,0.052322,-0.171814,-1.046555,0.325915,1455415994.118651
45.616837,-36.618057,-170.192993,-0.223479,-0.090671,0.102269,0.121841,-0.208954,-1.014801,0.326785,1455415994.188677
45.790283,-33.989975,-167.991501,-0.375452,0.043855,0.168388,0.092606,-0.141861,-0.989380,0.327978,1455415994.257738
45.269943,-36.618057,-168.160843,-0.270640,0.071131,0.351679,0.123611,-0.226685,-0.867264,0.329072,1455415994.318720
47.871658,-36.092438,-168.668884,-0.254217,0.146204,0.336353,0.031113,-0.179260,-0.946457,0.330577,1455415994.388790
48.738907,-37.318893,-167.822144,0.136096,0.013782,0.245275,-0.049011,-0.131485,-1.065063,0.331696,1455415994.458777
46.137177,-37.494095,-166.636719,0.179614,-0.127747,0.178953,-0.003983,-0.128540,-1.197037,0.332380,1455415994.518787
46.484085,-39.596558,-167.652802,-0.045255,-0.141064,0.116749,0.030487,-0.107224,-1.279312,0.334453,1455415994.588330
44.229248,-38.720535,-168.160843,-1.155448,-0.212475,-0.113276,-0.102814,0.131363,-1.258194,0.335778,1455415994.658788
44.402710,-37.494095,-165.959335,-1.413376,0.310054,-0.247129,-0.175293,0.573029,-1.460800,0.336782,1455415994.718802
45.616837,-38.019714,-166.128693,-0.136886,-0.000436,-0.148381,-0.084869,0.323837,-0.892593,0.334833,1455415994.788791
45.963730,-37.669296,-166.467377,-1.294539,0.200245,-0.279427,-0.075226,0.217636,-0.687149,0.333704,1455415994.858786
44.402710,-36.442856,-164.943268,-1.104606,0.094461,0.188117,-0.137848,0.018967,-0.475098,0.330818,1455415994.918777
43.882355,-35.216415,-164.773911,0.373418,0.613488,-0.441119,-0.256927,-0.050385,-0.831848,0.324625,1455415994.988798
44.576157,-36.968475,-165.112610,0.876293,-0.031530,-0.423335,0.056442,-0.125397,-1.033279,0.315666,1455415995.049099
43.708908,-39.246155,-166.636719,0.346003,0.017646,0.311510,-0.017334,0.179092,-1.418472,0.314502,1455415995.118856
45.963730,-40.472595,-164.773911,0.285856,-0.263977,0.477257,0.135284,0.351166,-1.384186,0.317250,1455415995.188801
43.535461,-41.874237,-165.451294,0.082561,-0.251027,0.393110,0.167664,0.330292,-1.274582,0.317250,1455415995.248675
41.627533,-40.647797,-166.298035,0.560147,-0.066744,0.333640,0.083984,0.072968,-0.735657,0.320883,1455415995.318785
42.668228,-41.348618,-169.684952,0.592324,0.061571,0.367755,0.160019,0.107544,-0.582367,0.324755,1455415995.388796
41.800980,-41.874237,-168.499527,0.828504,0.057836,0.585328,0.114304,0.105072,-0.563019,0.324408,1455415995.458789
40.586838,-42.750275,-167.991501,0.790753,-0.064442,0.825698,0.187378,0.042877,-0.578766,0.320995,1455415995.518786
40.760300,-41.874237,-168.838226,-0.521119,-0.095444,0.825587,-0.099609,-0.079071,-0.951096,0.318029,1455415995.588798
39.199265,-39.246155,-168.668884,-1.750264,-0.035324,-0.436008,-0.497131,0.311844,-1.749146,0.315627,1455415995.658789
38.332016,-41.173416,-167.483459,-0.620235,0.646390,-0.693675,-0.083786,0.320190,-1.465271,0.315015,1455415995.718684
37.638229,-39.771774,-168.838226,-0.100437,-0.070144,-0.582496,-0.073792,0.094406,-0.973602,0.313719,1455415995.788778
37.811676,-38.545334,-168.330185,-0.595508,-0.249477,-0.587034,0.037445,0.212021,-0.970993,0.312558,1455415995.848743
37.464783,-38.545334,-169.007568,0.590147,-0.116681,-0.323869,-0.104553,-0.017868,-0.507584,0.310150,1455415995.918798
37.291336,-39.421356,-168.160843,0.309136,0.268278,-0.442846,0.005173,-0.036560,-0.422531,0.304957,1455415995.988777
37.464783,-38.545334,-169.684952,-0.156641,0.462097,-0.078806,-0.004929,-0.125168,-0.657379,0.301367,1455415996.049067
37.117889,-39.946976,-167.314117,-0.676423,0.819199,0.104721,0.035324,-0.101852,-1.299973,0.297468,1455415996.118752
37.117889,-40.297394,-167.652802,-0.447774,0.634764,0.722255,0.180664,0.042038,-1.717133,0.296690,1455415996.188794
37.291336,-38.720535,-169.515610,0.094390,-0.346079,0.449067,0.075806,0.220627,-1.374771,0.296308,1455415996.249003
36.770981,-37.844498,-170.023651,0.644950,-0.237568,0.513392,0.157883,-0.003510,-0.771362,0.297550,1455415996.318784
37.985123,-39.070953,-170.531693,0.229857,-0.206043,0.226932,0.098801,0.108978,-0.700165,0.301037,1455415996.388778
37.291336,-38.720535,-171.209076,0.320037,0.121771,0.175647,0.095093,0.098236,-0.593765,0.301731,1455415996.448686
36.424088,-40.998215,-170.701035,0.189367,0.256182,0.236687,0.151672,0.037918,-0.675644,0.299465,1455415996.518796
36.424088,-40.647797,-170.701035,0.233402,0.069058,0.329697,0.097427,-0.022278,-0.883987,0.295779,1455415996.588786
35.556854,-40.122177,-171.209076,-0.566234,-0.410609,-0.252508,-0.028107,-0.006805,-1.357864,0.296130,1455415996.648680
32.087891,-38.720535,-169.515610,-0.531180,-0.197754,-0.743470,-0.099960,0.460205,-1.691086,0.296608,1455415996.718808
33.648926,-39.596558,-171.039734,0.205004,-0.210870,-0.696927,-0.025635,0.220261,-1.075882,0.296299,1455415996.788792
33.128571,-39.421356,-171.547760,-0.629752,0.093462,-0.503442,-0.007462,0.066330,-0.721634,0.298095,1455415996.848753
31.740997,-38.370117,-170.192993,-0.294030,-0.169018,-0.256500,0.045624,0.132431,-0.752243,0.298504,1455415996.918684
31.914444,-37.844498,-171.378418,0.196815,-0.055101,-0.047050,0.055771,-0.033707,-0.540298,0.297927,1455415996.988774
31.740997,-39.070953,-171.209076,-0.431721,0.178543,-0.011258,0.013779,-0.100235,-0.653595,0.296578,1455415997.048788
31.740997,-38.370117,-171.886459,-0.626921,0.658800,0.073465,0.011566,-0.064575,-1.229660,0.294363,1455415997.118993
30.526855,-37.844498,-170.701035,-0.171142,0.393221,0.567528,0.103104,0.089218,-1.529434,0.292704,1455415997.188787
32.781677,-39.421356,-171.209076,-0.124234,0.145437,0.785760,0.068161,0.111206,-1.512787,0.291755,1455415997.248776
32.781677,-37.669296,-171.209076,0.297082,-0.146997,0.712163,0.170258,0.138184,-1.136963,0.290518,1455415997.318775
34.689606,-37.494095,-172.055801,0.124889,-0.404709,0.576741,0.177078,0.079620,-0.827850,0.290915,1455415997.388787
33.302032,-37.494095,-172.733185,-0.141488,0.547357,0.660289,0.081161,0.204926,-0.786926,0.294946,1455415997.448788
36.077194,-37.143677,-174.426651,0.517046,0.164851,0.399442,0.059830,0.062088,-0.529282,0.297737,1455415997.518786
37.117889,-38.545334,-175.442734,0.203574,-0.020092,0.290523,0.058395,0.042419,-0.620499,0.295755,1455415997.588782
36.250641,-39.771774,-176.628159,0.123884,0.365357,0.366408,0.096069,0.091187,-0.951111,0.293040,1455415997.648796
36.944427,-39.421356,-175.612076,-0.020256,-0.268598,-0.254002,0.118332,0.095245,-1.250229,0.294382,1455415997.718782
36.424088,-38.194916,-175.104034,-0.327815,-0.059499,-0.709489,0.097809,0.328674,-1.516205,0.296411,1455415997.788688
36.424088,-38.895737,-175.442734,-0.105003,-0.015670,-0.518382,0.129303,0.267853,-1.235611,0.297505,1455415997.848784
36.077194,-38.194916,-176.458801,-0.060433,-0.132741,-0.570715,0.053452,0.079071,-0.840286,0.300112,1455415997.918416
37.117889,-38.545334,-176.458801,-0.320672,-0.204461,-0.509180,0.083466,0.194748,-0.709518,0.303830,1455415997.988784
36.770981,-38.895737,-175.781418,0.184967,-0.222654,-0.237577,0.072815,0.019882,-0.547714,0.305921,1455415998.048787
36.944427,-39.421356,-176.966843,-0.097025,-0.077257,-0.369701,0.080978,-0.016418,-0.829712,0.307157,1455415998.118828
38.332016,-40.823013,-175.273392,-0.054501,0.147981,-0.252962,0.157333,0.032043,-1.275421,0.306302,1455415998.188730
39.199265,-40.647797,-175.781418,-0.374588,0.507060,0.190320,0.335220,-0.003525,-1.407227,0.305326,1455415998.248707
38.158569,-38.545334,-175.104034,-0.432402,-0.050935,0.551280,0.320419,0.263000,-1.469910,0.304093,1455415998.318938
39.546158,-40.998215,-175.781418,0.251863,-0.420206,0.877066,0.303024,0.121292,-1.022568,0.305530,1455415998.388784
39.546158,-40.998215,-176.458801,0.210086,-0.105877,0.956145,0.212936,0.093781,-0.762390,0.311060,1455415998.448775
42.668228,-42.399857,-176.458801,0.324180,0.030580,0.986978,0.099335,0.094971,-0.602280,0.317838,1455415998.518775
43.188568,-41.523834,-177.644226,0.504187,-0.040553,0.908787,0.085434,0.020370,-0.553528,0.321434,1455415998.578728
42.321320,-44.852737,-178.490967,0.367447,-0.025150,0.751991,0.094772,0.025665,-0.795547,0.322724,1455415998.648288
44.055801,-45.203156,-178.152267,0.320886,0.125623,0.443807,0.078049,-0.009735,-1.082703,0.324673,1455415998.718787
45.269943,-45.378357,-177.305542,-1.303658,-0.135525,-0.263450,0.074326,0.399948,-1.702087,0.325647,1455415998.788777
46.137177,-45.553574,-178.152267,-0.831620,0.635072,-0.111997,0.118622,0.221603,-1.376663,0.323017,1455415998.848894
43.535461,-43.275894,-176.628159,-0.014651,-0.068439,0.059009,-0.034409,0.105209,-1.030777,0.321760,1455415998.918913
45.096497,-43.801514,-177.136200,-0.019365,-0.412567,-0.067590,0.022781,0.112442,-0.841705,0.322174,1455415998.978720
45.963730,-44.677536,-176.966843,0.431974,-0.207993,0.208988,0.055191,-0.009262,-0.545761,0.322258,1455415999.049051
45.269943,-43.275894,-177.305542,0.138418,-0.314125,0.209142,0.048981,-0.090836,-0.558456,0.322715,1455415999.118693
45.963730,-45.378357,-176.628159,-0.075154,-0.099382,0.153900,0.102402,-0.153229,-0.993134,0.323147,1455415999.188732
45.443390,-44.852737,-177.474884,0.216260,0.468999,0.553206,0.220322,-0.167450,-1.251099,0.323077,1455415999.248790
48.045105,-47.130417,-175.612076,-0.243746,0.362301,1.313449,0.157791,-0.169250,-1.323441,0.323863,1455415999.318783
48.045105,-44.677536,-176.628159,-0.601857,0.256990,1.366229,0.232849,0.000732,-1.228577,0.323182,1455415999.378763
48.218567,-47.656036,-176.797501,0.276236,-0.265336,1.570929,0.242798,0.039642,-1.059616,0.321275,1455415999.448783
49.606140,-46.955215,-176.458801,0.071352,-0.430615,1.453778,0.127945,0.029068,-0.919846,0.321091,1455415999.518788
49.085800,-48.882477,-174.595993,0.247354,-0.318483,1.201078,0.052505,0.066086,-0.791733,0.322714,1455415999.578771
49.085800,-48.882477,-175.273392,0.113565,0.150299,1.186410,0.144913,-0.081177,-0.594147,0.323725,1455415999.648809
49.606140,-49.758514,-173.410583,0.382104,-0.099236,1.101768,0.110123,-0.103226,-0.663055,0.321871,1455415999.718787
50.646835,-51.160156,-173.071884,0.076340,0.102104,0.921830,-0.006958,-0.083191,-0.900818,0.318064,1455415999.788785
50.646835,-50.809753,-173.071884,-0.433914,0.345203,0.687696,-0.027451,-0.105667,-1.003433,0.313003,1455415999.848796
50.993729,-50.108932,-173.071884,-0.991024,0.620211,0.117000,0.008499,0.136353,-1.302612,0.309195,1455415999.918784
52.034424,-49.758514,-172.733185,-0.420085,0.066575,0.541482,0.066071,0.022049,-1.097748,0.308131,1455415999.978747
50.993729,-48.356873,-170.023651,-0.256239,-0.409705,0.397910,-0.007553,0.078217,-1.034149,0.305396,1455416000.048774
49.953049,-50.459335,-169.007568,-0.192778,-0.023990,0.272190,0.037354,0.003448,-0.793869,0.301202,1455416000.118874
52.034424,-48.707275,-171.717117,-0.014701,0.196066,0.323398,-0.000778,-0.054321,-0.733917,0.298461,1455416000.178693
51.167175,-50.284134,-169.854309,0.041713,0.037093,0.352876,-0.003708,-0.121201,-0.794693,0.297061,1455416000.248804
52.207870,-51.335373,-168.499527,0.143893,-0.040783,0.659996,0.137268,-0.056976,-1.108826,0.295233,1455416000.318778
53.248550,-52.036194,-168.160843,0.127982,-0.425685,0.939473,0.233902,0.022598,-1.398529,0.293295,1455416000.378721
50.646835,-52.912216,-168.668884,-0.347620,-0.094156,0.799891,0.262161,0.330978,-1.549942,0.291066,1455416000.448790
51.514069,-55.540314,-166.128693,0.169159,0.284603,1.341057,0.241653,-0.019852,-0.824142,0.288361,1455416000.518778
49.606140,-56.766754,-166.298035,0.207280,-0.744136,1.064016,0.100113,0.027100,-0.728317,0.289039,1455416000.578778
48.392014,-57.292374,-166.467377,0.263928,0.037218,0.830994,0.098663,0.061661,-0.793518,0.289030,1455416000.648779
45.790283,-58.869232,-163.927185,-0.254677,0.711401,0.562104,-0.019257,0.220947,-1.126434,0.286980,1455416000.718776
46.310638,-57.642776,-163.757843,0.483475,0.333428,0.557543,0.067001,0.175339,-1.252167,0.284447,1455416000.778736
44.402710,-59.219635,-164.943268,-0.586689,-0.670602,0.004257,-0.055237,0.184982,-1.313904,0.282806,1455416000.848786
45.269943,-57.993195,-166.806076,-1.092878,0.543399,-0.186785,0.056076,0.237549,-1.216019,0.283089,1455416000.918785
44.402710,-58.869232,-165.620651,-0.324133,-0.487670,0.099821,-0.018738,0.063568,-0.938461,0.283991,1455416000.978784
43.015121,-57.117172,-166.975418,-0.779402,-0.767170,-0.131497,0.017410,0.097641,-0.801453,0.285036,1455416001.048777
43.015121,-58.518814,-167.314117,-0.487855,-0.138514,-0.078692,0.002228,0.075638,-0.852798,0.286714,1455416001.118843
41.974426,-56.766754,-167.314117,0.265550,0.382444,-0.020249,0.017624,-0.174606,-0.736801,0.288243,1455416001.179054
41.454086,-57.993195,-167.822144,0.196860,0.307150,0.257292,0.067749,-0.070007,-1.076904,0.288677,1455416001.248777
38.852371,-57.817993,-166.975418,0.553614,-0.159661,0.544746,0.059570,0.064865,-1.342163,0.287379,1455416001.318777
35.383408,-56.065933,-166.298035,-0.036914,0.345430,0.630471,0.204636,0.287704,-1.396881,0.286438,1455416001.378777
34.689606,-53.963455,-165.959335,0.135088,-0.070298,0.678872,0.250076,0.232101,-1.144669,0.286502,1455416001.448786
34.516159,-50.634537,-164.773911,0.065173,0.087706,0.491763,0.124283,0.217133,-0.777847,0.286621,1455416001.518780
35.383408,-48.707275,-163.249802,0.223012,-0.188937,0.409964,0.037735,0.219818,-0.600693,0.286244,1455416001.578785
37.638229,-47.831253,-163.757843,0.721343,-0.335574,0.478557,0.069092,0.191132,-0.347656,0.285487,1455416001.648774
39.372711,-47.130417,-162.403061,-0.269060,0.885458,0.595966,0.078384,0.037598,-0.664673,0.285846,1455416001.718774
41.280640,-47.656036,-162.911102,-1.516167,0.711282,0.288236,0.099136,0.009155,-1.289566,0.285357,1455416001.778781
43.188568,-47.480835,-162.064377,-1.617563,-0.251820,-0.408140,-0.064209,0.394485,-1.911636,0.283128,1455416001.848787
43.708908,-45.903976,-160.540253,0.076240,-0.084301,-0.373106,0.074844,0.342468,-1.378525,0.281765,1455416001.918773
45.443390,-46.604813,-161.556335,0.203095,-0.306761,-0.287883,-0.044296,0.239410,-0.933289,0.283248,1455416001.978785
47.698212,-45.728775,-162.064377,0.329813,-0.354980,-0.459107,-0.065887,0.328705,-0.831329,0.285060,1455416002.048778
50.646835,-45.553574,-161.895035,0.782936,-0.232815,-0.307490,-0.012787,0.089722,-0.511276,0.286378,1455416002.118938
50.126495,-46.429596,-162.741760,0.583952,0.001504,-0.404096,-0.048874,-0.023041,-0.491043,0.286453,1455416002.178806
53.942352,-45.728775,-162.403061,0.277341,0.098999,-0.420809,0.064606,-0.144882,-0.915100,0.285956,1455416002.248733
55.156479,-44.852737,-161.217651,0.179380,0.125754,0.216642,0.254730,-0.070374,-1.252258,0.284982,1455416002.318786
57.411316,-46.079193,-162.064377,-0.214224,0.137794,0.861305,0.195755,-0.264374,-1.167236,0.285018,1455416002.378792
58.972336,-50.108932,-160.540253,-0.929990,-0.078205,0.791279,0.198471,0.263077,-1.231369,0.287181,1455416002.448776
60.706818,-51.160156,-163.927185,-0.276557,-0.175673,1.017262,0.144455,0.171906,-1.093903,0.286939,1455416002.518087
58.798889,-53.087433,-164.773911,-0.183414,-0.111109,0.733549,0.030380,0.092407,-0.839981,0.288152,1455416002.578789
60.706818,-55.715515,-164.604568,0.504406,-0.227289,0.544850,0.071793,0.063889,-0.724899,0.290755,1455416002.648774
58.625443,-59.570053,-166.975418,0.558746,0.061885,0.559961,0.092804,-0.042969,-0.608902,0.291534,1455416002.718775
58.278549,-59.920456,-166.975418,0.203766,0.208361,0.387651,0.065857,0.035507,-1.069473,0.289982,1455416002.778761
56.717514,-62.198135,-167.144760,0.050110,0.006584,0.228301,0.035431,0.064407,-1.266068,0.288371,1455416002.848786
56.544067,-61.322113,-166.298035,-0.724610,-0.256902,-0.173578,-0.090424,0.223602,-1.371887,0.288955,1455416002.918785
56.890961,-62.022934,-170.362350,-1.024469,-0.363295,-0.580857,-0.059525,0.278564,-1.260376,0.289919,1455416002.978786
58.105103,-57.642776,-169.515610,-0.288101,0.355282,-0.778912,-0.079468,0.261444,-1.106644,0.290235,1455416003.048779
60.533371,-59.044434,-171.547760,-0.454980,0.141927,-0.770369,-0.002930,0.164459,-0.807846,0.291248,1455416003.118817
61.400620,-58.518814,-171.039734,0.315246,-0.044971,-0.212699,-0.007767,0.053925,-0.687775,0.292906,1455416003.178846
62.961655,-59.394836,-172.225159,0.553380,-0.008413,-0.317253,-0.046265,-0.019104,-0.427490,0.294672,1455416003.248785
64.522675,-58.518814,-171.378418,-0.177580,0.138995,-0.404430,-0.041000,-0.038528,-0.576752,0.299022,1455416003.318776
63.828888,-59.570053,-171.039734,-0.555820,0.297671,-0.342850,0.046280,-0.006348,-1.269760,0.302798,1455416003.378774
66.604065,-57.817993,-170.701035,-0.717612,0.453638,0.246773,0.188904,-0.070480,-1.646973,0.301602,1455416003.448776
66.430603,-60.095673,-170.531693,-0.195309,-0.132687,0.503462,0.199921,0.048843,-1.349182,0.300531,1455416003.518821
66.257156,-60.270874,-171.378418,-0.703081,0.226263,0.652024,0.208878,0.159592,-1.214417,0.301929,1455416003.578773
66.083710,-62.898956,-171.886459,0.533379,-0.563123,1.064527,0.256805,0.098434,-0.900635,0.304534,1455416003.648779
67.124405,-67.103912,-173.241226,0.592907,-0.391616,0.911946,0.133469,0.160446,-0.756104,0.310174,1455416003.718805
64.175781,-68.330353,-174.087967,0.980219,0.087470,0.996858,0.076111,0.068344,-0.480438,0.318678,1455416003.778775
64.002335,-69.556793,-170.870377,0.692197,0.475050,0.951235,0.082291,0.048935,-0.659683,0.325192,1455416003.848537
65.216476,-71.834473,-168.330185,-0.598336,1.213735,0.859144,0.092850,0.099884,-1.042526,0.325968,1455416003.918788
63.135101,-70.432816,-169.346268,-1.470937,-0.092897,0.165833,-0.046356,0.135757,-1.290680,0.321122,1455416003.978781
65.910263,-70.082413,-170.701035,-0.661840,0.232460,-0.166751,0.102905,0.346985,-1.459015,0.317568,1455416004.048794
66.777512,-69.206375,-170.531693,-0.055124,-0.407396,-0.108395,0.077133,0.268677,-1.258499,0.315657,1455416004.108973
65.563370,-66.227875,-170.362350,-0.291186,-0.614547,-0.328292,-0.017578,0.162537,-0.956451,0.316525,1455416004.178942
65.043030,-63.950195,-170.870377,-0.240568,0.105137,-0.270216,0.085144,0.017181,-0.770401,0.318273,1455416004.248623
66.777512,-62.898956,-172.225159,0.248891,0.213196,-0.148065,0.054855,-0.118073,-0.602280,0.319306,1455416004.308669
66.257156,-63.774994,-170.701035,1.031153,-0.122299,0.051350,0.087509,-0.067337,-0.685074,0.321211,1455416004.378076
64.522675,-62.723755,-169.346268,0.578915,-0.063079,0.256202,0.120743,-0.085556,-0.687164,0.322125,1455416004.438576
64.002335,-63.599792,-168.160843,0.320509,-0.024568,0.650384,0.082626,-0.042664,-0.966721,0.322154,1455416004.508585
59.666138,-64.826233,-167.652802,-0.989827,0.151912,0.946259,0.072617,0.028748,-1.255768,0.321283,1455416004.578586
59.492691,-64.651016,-170.531693,-0.331440,-0.475307,0.695651,0.149979,0.298508,-1.449341,0.320387,1455416004.638590
55.503387,-64.826233,-167.652802,-0.321101,-0.292533,0.944772,0.264420,-0.077057,-0.869324,0.319710,1455416004.708586
54.115799,-64.125412,-169.684952,-0.280833,-0.369148,0.919233,0.150269,0.103409,-0.918045,0.321305,1455416004.778447
50.473389,-65.702255,-170.531693,-0.065591,-0.314007,0.889010,0.120514,0.134766,-0.917343,0.324248,1455416004.838629
48.565460,-66.227875,-170.701035,0.584885,-0.159879,0.856849,-0.010635,0.094864,-0.814468,0.323990,1455416004.908647
46.657532,-64.651016,-169.176926,0.540615,-0.287297,0.626828,0.027740,0.177963,-1.016937,0.322426,1455416004.978665
42.494766,-65.702255,-167.822144,0.557196,-0.484806,0.572634,0.006119,0.179550,-1.164536,0.319305,1455416005.048719
42.668228,-67.279114,-167.314117,-0.011219,0.091408,-0.127260,-0.147751,0.164505,-1.247498,0.316882,1455416005.108687
41.107193,-66.753494,-168.499527,-0.641749,-0.075877,-0.315199,-0.124695,0.080612,-0.888245,0.315498,1455416005.178758
41.627533,-65.877472,-168.330185,-0.540042,-0.059282,-0.146903,0.023987,0.086700,-0.859924,0.310974,1455416005.248756
40.239944,-65.877472,-168.330185,-0.401609,0.274923,-0.000765,0.061996,0.001282,-0.876297,0.306765,1455416005.318785
38.852371,-65.527054,-168.330185,-0.283246,0.475931,0.182654,0.022293,-0.089920,-0.903809,0.306354,1455416005.378793
38.505463,-64.826233,-168.330185,-0.109360,0.622825,0.551512,0.118454,-0.000031,-1.274872,0.304113,1455416005.448791
38.332016,-63.599792,-169.176926,-0.157638,0.199338,0.744209,0.277481,0.180710,-1.646744,0.299214,1455416005.508724
35.036499,-65.877472,-166.975418,-0.095281,0.774343,0.721752,0.289459,0.233475,-1.443283,0.295124,1455416005.578773
34.689606,-63.774994,-166.636719,-0.029742,-0.086626,0.677976,0.230148,0.002228,-0.864960,0.296327,1455416005.648796
34.516159,-62.198135,-165.789993,0.309827,-0.710044,0.662124,0.145035,0.201126,-0.812027,0.297620,1455416005.708750
32.434784,-61.847733,-165.451294,0.462566,-0.234288,0.584767,0.138443,0.101151,-0.535034,0.299224,1455416005.778784
32.608231,-61.322113,-164.265884,0.346936,0.168162,0.646515,0.129288,0.057053,-0.512283,0.298074,1455416005.848775
32.261337,-62.022934,-165.281952,-0.157178,0.033410,0.484671,0.081070,0.100449,-0.744736,0.295382,1455416005.918790
32.781677,-59.044434,-165.112610,-1.355590,-0.150649,0.315751,0.127060,0.224319,-1.205673,0.293779,1455416005.978787
33.995819,-59.570053,-166.975418,-0.582692,0.087427,0.065227,0.017441,0.385727,-1.493134,0.293382,1455416006.048783
32.434784,-58.343613,-166.128693,-0.259050,-0.636442,0.236922,0.102798,0.429382,-1.469223,0.293682,1455416006.108778
32.781677,-58.343613,-165.451294,0.423193,0.172098,0.317561,-0.070267,0.251251,-1.088211,0.292495,1455416006.178965
35.383408,-59.219635,-165.620651,0.589110,-0.254963,0.084931,-0.065247,0.104340,-0.901352,0.291795,1455416006.248703
34.689606,-58.869232,-165.959335,0.690142,0.037002,0.231458,-0.073135,0.028351,-0.778992,0.289734,1455416006.308721
36.597534,-61.146896,-163.757843,0.624498,0.426204,0.404347,-0.072754,-0.134460,-0.699341,0.288581,1455416006.378786
37.464783,-61.672516,-165.959335,0.232738,0.392266,0.331622,-0.078461,-0.065018,-0.920761,0.289531,1455416006.448780
37.985123,-61.146896,-164.096527,1.010839,-0.899682,0.264591,-0.145691,-0.206833,-0.610443,0.291396,1455416006.508786
36.944427,-61.497314,-165.789993,-0.063721,1.522751,0.786169,0.058838,-0.093521,-1.021881,0.293838,1455416006.578789
37.464783,-62.022934,-164.943268,-0.164039,0.191152,0.621728,0.238678,-0.018845,-1.142166,0.293605,1455416006.648763
36.597534,-61.847733,-164.096527,-0.254844,0.085511,0.617942,0.016418,0.036606,-1.022385,0.292248,1455416006.708773
36.770981,-62.022934,-166.298035,-0.503181,0.505359,0.669783,0.145920,-0.053574,-0.889221,0.292162,1455416006.778776
